{
  "resourceType": "Bundle",
  "type": "collection",
  "entry": [
    {
      "resource": {
        "resourceType": "Patient",
        "id": "patient-001"
      }
    },
    {
      "resource": {
        "resourceType": "Practitioner",
        "id": "prac-001"
      }
    },
    {
      "resource": {
        "resourceType": "Organization",
        "id": "org-001"
      }
    },
    {
      "resource": {
        "resourceType": "Encounter",
        "id": "enc-001",
        "status": "finished",
        "class": {
          "system": "http://terminology.hl7.org/CodeSystem/v3-ActCode",
          "code": "AMB"
        },
        "subject": {
          "reference": "Patient/patient-001"
        },
        "participant": [
          {
            "individual": {
              "reference": "Practitioner/prac-001"
            }
          }
        ],
        "serviceProvider": {
          "reference": "Organization/org-001"
        }
      }
    },
    {
      "resource": {
        "resourceType": "Observation",
        "id": "obs-001",
        "status": "final",
        "code": {
          "coding": [
            {
              "system": "http://loinc.org",
              "code": "8867-4"
            }
          ]
        },
        "subject": {
          "reference": "Patient/patient-001"
        },
        "encounter": {
          "reference": "Encounter/enc-001"
        },
        "performer": [
          {
            "reference": "Practitioner/prac-001"
          },
          {
            "reference": "Organization/org-001"
          }
        ]
      }
    }
  ]
}
