{
  "resourceType": "Bundle",
  "type": "collection",
  "entry": [
    {
      "fullUrl": "urn:uuid:patient-001",
      "resource": {
        "resourceType": "Patient",
        "id": "patient-001",
        "identifier": [
          {
            "system": "http://example.org/nric",
            "value": "S1234567D"
          }
        ],
        "name": [
          {
            "family": "Simpson",
            "given": ["Homer"]
          }
        ],
        "gender": "male",
        "birthDate": "1956-05-12",
        "address": [
          {
            "line": ["742 Evergreen Terrace"],
            "city": "Springfield",
            "postalCode": "123456"
          }
        ]
      }
    },
    {
      "fullUrl": "urn:uuid:encounter-001",
      "resource": {
        "resourceType": "Encounter",
        "id": "encounter-001",
        "status": "finished",
        "class": {
          "system": "http://terminology.hl7.org/CodeSystem/v3-ActCode",
          "code": "AMB"
        },
        "subject": {
          "reference": "urn:uuid:patient-001"
        }
      }
    },
    {
      "fullUrl": "urn:uuid:observation-001",
      "resource": {
        "resourceType": "Observation",
        "id": "observation-001",
        "status": "final",
        "code": {
          "coding": [
            {
              "system": "http://example.org",
              "code": "MH-001",
              "display": "Maternal Health Screening"
            }
          ]
        },
        "subject": {
          "reference": "urn:uuid:patient-001"
        },
        "encounter": {
          "reference": "urn:uuid:encounter-001"
        },
        "component": [
          {
            "code": {
              "coding": [
                {
                  "system": "http://example.org/questions",
                  "code": "SQ-001",
                  "display": "Gestational Age"
                }
              ]
            },
            "valueString": "28 weeks"
          }
        ]
      }
    }
  ]
}
