{
  "resourceType": "Bundle",
  "type": "collection",
  "entry": [
    {
      "fullUrl": "urn:uuid:11111111-1111-1111-1111-111111111111",
      "resource": {
        "resourceType": "Patient",
        "id": "11111111-1111-1111-1111-111111111111",
        "identifier": [
          {
            "system": "https://fhir.synapxe.sg/NamingSystem/nric",
            "value": "S1234567A"
          }
        ],
        "name": [
          {
            "family": "Tan",
            "given": ["John"]
          }
        ],
        "gender": "male",
        "birthDate": "1950-01-15"
      }
    },
    {
      "fullUrl": "urn:uuid:22222222-2222-2222-2222-222222222222",
      "resource": {
        "resourceType": "Encounter",
        "id": "22222222-2222-2222-2222-222222222222",
        "status": "finished",
        "class": {
          "system": "http://terminology.hl7.org/CodeSystem/v3-ActCode",
          "code": "AMB",
          "display": "ambulatory"
        },
        "serviceType": {
          "coding": [
            {
              "system": "https://fhir.synapxe.sg/CodeSystem/screening-type",
              "code": "HS",
              "display": "Hearing Screening"
            }
          ]
        },
        "subject": {
          "reference": "urn:uuid:11111111-1111-1111-1111-111111111111"
        },
        "period": {
          "start": "2024-12-01T10:00:00+08:00",
          "end": "2024-12-01T11:00:00+08:00"
        },
        "serviceProvider": {
          "reference": "urn:uuid:55555555-5555-5555-5555-555555555555"
        }
      }
    },
    {
      "fullUrl": "urn:uuid:55555555-5555-5555-5555-555555555555",
      "resource": {
        "resourceType": "Organization",
        "id": "55555555-5555-5555-5555-555555555555",
        "identifier": [
          {
            "system": "https://fhir.synapxe.sg/NamingSystem/hci-code",
            "value": "HCI001"
          }
        ],
        "name": "Test Organization",
        "active": true
      }
    },
    {
      "fullUrl": "urn:uuid:66666666-6666-6666-6666-666666666666",
      "resource": {
        "resourceType": "Observation",
        "id": "66666666-6666-6666-6666-666666666666",
        "status": "final",
        "code": {
          "coding": [
            {
              "system": "https://fhir.synapxe.sg/CodeSystem/screening-questionnaire",
              "code": "SQ-L2H9-00000001",
              "display": "Is the participant currently wearing hearing aid(s)?"
            }
          ]
        },
        "subject": {
          "reference": "urn:uuid:11111111-1111-1111-1111-111111111111"
        },
        "encounter": {
          "reference": "urn:uuid:22222222-2222-2222-2222-222222222222"
        },
        "valueString": "Yes (Proceed to next question)"
      }
    }
  ]
}
